{"bundle_id":"ae-citation-bundle-sdtmig34-core-events-ae-v1","coverage_gaps":[{"gap_id":"gap-sdtmig34-assumption-statements-not-approved-in-p6","handling":"Do not infer assumptions from examples or requirements; request an approved extraction or human review.","status":"not_in_approved_deep_scope","topic":"Assumption statements"},{"gap_id":"gap-ae-aedecod-coding-not-approved-in-p6","handling":"P7 must request additional governed knowledge or human review; do not infer coding rules from AETERM.","status":"not_in_approved_deep_scope","topic":"AEDECOD / MedDRA coding"},{"gap_id":"gap-controlled-terminology-not-deep-extracted-in-p6","handling":"Use only explicit CT source integration in a later phase; current bundle returns a gap.","status":"external_dependency_registered_not_deep_extracted","topic":"Controlled Terminology"},{"gap_id":"gap-crf-edc-to-sdtm-programming-not-in-p6","handling":"P6 provides citation evidence only; P7 owns MappingSpec/program candidate generation.","status":"workflow_execution_deferred","topic":"CRF/EDC to SDTM programming process"},{"gap_id":"gap-executable-implementation-guidance-deferred-to-p7","handling":"P6 provides governed citation evidence only; P7 owns executable workflow guidance and program candidates.","status":"workflow_execution_deferred","topic":"Executable implementation guidance"},{"gap_id":"gap-study-specific-ae-rules-not-in-p6","handling":"Study-specific decisions must come from the Study workspace and Review Protocol.","status":"requires_study_context","topic":"Current study AE rules"},{"gap_id":"gap-full-ae-variable-table-not-approved-in-p6","handling":"Only AETERM and AEENRF are approved variable-level examples in P6.","status":"partial_deep_scope","topic":"Full AE variable table"}],"generated_at":"2026-07-15T18:20:00+08:00","query_benchmark_id":"query-benchmark-sdtmig34-core-events-ae-v1","rules":[{"card_id":"kr-sdtmig34-core-variable-rules","conditions":["--DTC and RFSTDTC date portions are available."],"evidence":[{"artifact_id":"artifact-cdisc-sdtmig-3-4-pdf","artifact_role":"primary_citation","artifact_sha256":"ea4ddbba4a3e10a55bb2f36d5e28d9cfc191090717c2426475279750a7f57021","locator_id":"loc-sdtmig34-deep-p0042-b003","locator_type":"pdf_region","physical_page":42,"printed_page":"42","row_key":null,"row_number":null,"section_path":["4 Assumptions for Domain Models","4.4 Actual and Relative Time Assumptions","4.4.4 Use of the Study Day Variables"],"sheet_name":null,"source_id":"src-cdisc-sdtmig-3-4"},{"artifact_id":"artifact-cdisc-sdtmig-3-4-pdf","artifact_role":"primary_citation","artifact_sha256":"ea4ddbba4a3e10a55bb2f36d5e28d9cfc191090717c2426475279750a7f57021","locator_id":"loc-sdtmig34-deep-p0042-b004","locator_type":"pdf_region","physical_page":42,"printed_page":"42","row_key":null,"row_number":null,"section_path":["4 Assumptions for Domain Models","4.4 Actual and Relative Time Assumptions","4.4.4 Use of the Study Day Variables"],"sheet_name":null,"source_id":"src-cdisc-sdtmig-3-4"}],"exceptions":[],"knowledge_type":"variable_rule","modality":"should","scope":{"domains":[],"implementation_guide":"SDTMIG-3.4","model":"SDTM-2.0","variables":["--DY","--DTC","RFSTDTC"]},"statement":"Calculate --DY from the date portion of --DTC and RFSTDTC, adding 1 when --DTC is on or after RFSTDTC and not adding 1 when --DTC precedes RFSTDTC; use this method across domains.","statement_id":"proposal-sdtmig34-core-study-day-calculation-method-v1","subject":"--DY calculation"},{"card_id":"kr-sdtmig34-core-variable-rules","conditions":[],"evidence":[{"artifact_id":"artifact-cdisc-sdtmig-3-4-pdf","artifact_role":"primary_citation","artifact_sha256":"ea4ddbba4a3e10a55bb2f36d5e28d9cfc191090717c2426475279750a7f57021","locator_id":"loc-sdtmig34-deep-p0042-b001","locator_type":"pdf_region","physical_page":42,"printed_page":"42","row_key":null,"row_number":null,"section_path":["4 Assumptions for Domain Models","4.4 Actual and Relative Time Assumptions","4.4.4 Use of the Study Day Variables"],"sheet_name":null,"source_id":"src-cdisc-sdtmig-3-4"}],"exceptions":["Study day values are not suited for subsequent numeric duration calculations."],"knowledge_type":"variable_rule","modality":"should","scope":{"domains":["DM"],"implementation_guide":"SDTMIG-3.4","model":"SDTM-2.0","variables":["RFSTDTC","--DY","--STDY","--ENDY"]},"statement":"RFSTDTC is study day 1, the day before it is study day -1, there is no study day 0, and raw dates should be used instead of study day values for numeric duration calculations.","statement_id":"proposal-sdtmig34-core-study-day-reference-and-limit-v1","subject":"Study day reference date"},{"card_id":"kr-sdtmig34-core-variable-rules","conditions":[],"evidence":[{"artifact_id":"artifact-cdisc-sdtmig-3-4-pdf","artifact_role":"primary_citation","artifact_sha256":"ea4ddbba4a3e10a55bb2f36d5e28d9cfc191090717c2426475279750a7f57021","locator_id":"loc-sdtmig34-deep-p0041-b017","locator_type":"pdf_region","physical_page":41,"printed_page":"41","row_key":null,"row_number":null,"section_path":["4 Assumptions for Domain Models","4.4 Actual and Relative Time Assumptions","4.4.4 Use of the Study Day Variables"],"sheet_name":null,"source_id":"src-cdisc-sdtmig-3-4"}],"exceptions":[],"knowledge_type":"variable_rule","modality":"descriptive","scope":{"domains":[],"implementation_guide":"SDTMIG-3.4","model":"SDTM-2.0","variables":["--DY","--STDY","--ENDY","--DTC","--STDTC","--ENDTC","RFSTDTC"]},"statement":"Study day variables describe an observation's relative day using the reference date as day 1.","statement_id":"proposal-sdtmig34-core-study-day-variable-purpose-v1","subject":"Study day variables"},{"card_id":"kr-sdtmig34-ae-domain-rules","conditions":[],"evidence":[{"artifact_id":"artifact-cdisc-sdtmig-3-4-pdf","artifact_role":"primary_citation","artifact_sha256":"ea4ddbba4a3e10a55bb2f36d5e28d9cfc191090717c2426475279750a7f57021","locator_id":"loc-sdtmig34-p133-ae-definition","locator_type":"pdf_region","physical_page":133,"printed_page":"133","row_key":null,"row_number":null,"section_path":["6 Domain Models Based on the General Observation Classes","6.2 Models for Events Domains","6.2.1 Adverse Events (AE)","AE – Description/Overview"],"sheet_name":null,"source_id":"src-cdisc-sdtmig-3-4"}],"exceptions":[],"knowledge_type":"definition","modality":"descriptive","scope":{"domains":["AE"],"implementation_guide":"SDTMIG-3.4","model":"SDTM-2.0","variables":[]},"statement":"AE covers untoward medical occurrences, and the occurrence does not need to have a causal treatment relationship.","statement_id":"proposal-sdtmig34-gold-ae-definition-v1","subject":"AE domain"},{"card_id":"kr-sdtmig34-ae-domain-rules","conditions":["Informative example only"],"evidence":[{"artifact_id":"artifact-cdisc-sdtmig-3-4-pdf","artifact_role":"primary_citation","artifact_sha256":"ea4ddbba4a3e10a55bb2f36d5e28d9cfc191090717c2426475279750a7f57021","locator_id":"loc-sdtmig34-p140-ae-example1","locator_type":"pdf_region","physical_page":140,"printed_page":"140","row_key":null,"row_number":null,"section_path":["6 Domain Models Based on the General Observation Classes","6.2 Models for Events Domains","6.2.1 Adverse Events (AE)","AE – Examples","Example 1"],"sheet_name":null,"source_id":"src-cdisc-sdtmig-3-4"}],"exceptions":[],"knowledge_type":"example","modality":"not_applicable","scope":{"domains":["AE"],"implementation_guide":"SDTMIG-3.4","model":"SDTM-2.0","variables":[]},"statement":"Example 1 is illustrative only and shows free-text AE capture, MedDRA coding, optional modified term, and seriousness-category collection in one study scenario.","statement_id":"proposal-sdtmig34-gold-ae-example1-v1","subject":"AE Example 1"},{"card_id":"kr-sdtmig34-ae-domain-rules","conditions":[],"evidence":[{"artifact_id":"artifact-cdisc-sdtmig-3-4-pdf","artifact_role":"primary_citation","artifact_sha256":"ea4ddbba4a3e10a55bb2f36d5e28d9cfc191090717c2426475279750a7f57021","locator_id":"loc-sdtmig34-p134-ae-spec-table","locator_type":"pdf_region","physical_page":134,"printed_page":"134","row_key":null,"row_number":null,"section_path":["6 Domain Models Based on the General Observation Classes","6.2 Models for Events Domains","6.2.1 Adverse Events (AE)","AE - Specification"],"sheet_name":null,"source_id":"src-cdisc-sdtmig-3-4"}],"exceptions":[],"knowledge_type":"definition","modality":"descriptive","scope":{"domains":["AE"],"implementation_guide":"SDTMIG-3.4","model":"SDTM-2.0","variables":[]},"statement":"AE is organized as one record for each adverse event for each subject.","statement_id":"proposal-sdtmig34-gold-ae-structure-v1","subject":"AE dataset structure"},{"card_id":"kr-sdtmig34-ae-domain-rules","conditions":[],"evidence":[{"artifact_id":"artifact-cdisc-sdtmig-3-4-xlsx","artifact_role":"structured_companion","artifact_sha256":"0176e72eb43764ce01cfd7896dcc9d5b97cc55d0ce766c1ad14034a0b9ccb991","locator_id":"loc-sdtmig34-xlsx-variables-r342","locator_type":"xlsx_row","physical_page":null,"printed_page":null,"row_key":"AE.AEENRF","row_number":342,"section_path":["Variables","AE","AEENRF"],"sheet_name":"Variables","source_id":"src-cdisc-sdtmig-3-4"}],"exceptions":[],"knowledge_type":"cross_reference","modality":"descriptive","scope":{"domains":["AE"],"implementation_guide":"SDTMIG-3.4","model":"SDTM-2.0","variables":["AEENRF"]},"statement":"Read AE.AEENRF values together with the general relative-timing guidance in Section 4.4.7.","statement_id":"proposal-sdtmig34-gold-aeenrf-crossref-v1","subject":"AE.AEENRF"},{"card_id":"kr-sdtmig34-ae-domain-rules","conditions":[],"evidence":[{"artifact_id":"artifact-cdisc-sdtmig-3-4-pdf","artifact_role":"primary_citation","artifact_sha256":"ea4ddbba4a3e10a55bb2f36d5e28d9cfc191090717c2426475279750a7f57021","locator_id":"loc-sdtmig34-p137-aeterm-assumption","locator_type":"pdf_region","physical_page":137,"printed_page":"137","row_key":null,"row_number":null,"section_path":["6 Domain Models Based on the General Observation Classes","6.2 Models for Events Domains","6.2.1 Adverse Events (AE)","AE – Assumptions"],"sheet_name":null,"source_id":"src-cdisc-sdtmig-3-4"},{"artifact_id":"artifact-cdisc-sdtmig-3-4-xlsx","artifact_role":"structured_companion","artifact_sha256":"0176e72eb43764ce01cfd7896dcc9d5b97cc55d0ce766c1ad14034a0b9ccb991","locator_id":"loc-sdtmig34-xlsx-variables-r293","locator_type":"xlsx_row","physical_page":null,"printed_page":null,"row_key":"AE.AETERM","row_number":293,"section_path":["Variables","AE","AETERM"],"sheet_name":"Variables","source_id":"src-cdisc-sdtmig-3-4"}],"exceptions":[],"knowledge_type":"variable_rule","modality":"must","scope":{"domains":["AE"],"implementation_guide":"SDTMIG-3.4","model":"SDTM-2.0","variables":["AETERM"]},"statement":"AE.AETERM is required as the topic variable and records the collected verbatim adverse-event term.","statement_id":"proposal-sdtmig34-gold-aeterm-required-v1","subject":"AE.AETERM"},{"card_id":"kr-sdtmig34-ae-domain-rules","conditions":["RELTYPE equals MANY"],"evidence":[{"artifact_id":"artifact-cdisc-sdtmig-3-4-release-accession","artifact_role":"companion_evidence","artifact_sha256":"d341ab793b932f0360607111d03c616ae162496367c846655eb61f5776916461","locator_id":"loc-sdtmig34-web-errata-section15","locator_type":"web_section","physical_page":null,"printed_page":null,"row_key":null,"row_number":null,"section_path":["Errata","SDTMIG v3.4","Section 1.5 - Known Issues"],"sheet_name":null,"source_id":"src-cdisc-sdtmig-3-4"}],"exceptions":[],"knowledge_type":"exception","modality":"must","scope":{"domains":[],"implementation_guide":"SDTMIG-3.4","model":"SDTM-2.0","variables":["RELTYPE","IDVAR","--LNKGRP","--LNKID"]},"statement":"For RELTYPE=MANY, apply the published erratum that uses --LNKGRP rather than --LNKID for IDVAR.","statement_id":"proposal-sdtmig34-gold-erratum-lnkgrp-v1","subject":"RELREC IDVAR for RELTYPE=MANY"}],"schema_version":"1.0.0","snapshot_lock":{"sha256":"d8aafb73ccca987d597e372435b664ba074c1a45688d5e2eef809c72f475a9ec","snapshot_id":"snapshot-sdtmig34-core-events-ae-v1","version":"1.0.0"},"source":{"primary_artifact_id":"artifact-cdisc-sdtmig-3-4-pdf","rights_status":"restricted","source_id":"src-cdisc-sdtmig-3-4","source_sha256":"ea4ddbba4a3e10a55bb2f36d5e28d9cfc191090717c2426475279750a7f57021","source_version":"SDTMIG 3.4 Final, PDF re-issued 2022-07-21","storage_mode":"local_only"},"usage_boundary":"P7 may use this bundle for citation-backed rule retrieval and explicit gap reporting only. MappingSpec/program generation remains P7 work."}
