STUDYID,DOMAIN,USUBJID,AESEQ,AETERM,AESTDTC,AEENDTC,AESTDY,AEENDY
SYNTH-AE-001,AE,SUBJ-001,1,Headache,2026-01-11,2026-01-12,2,3
SYNTH-AE-001,AE,SUBJ-001,2,Nausea,2026-01-09,2026-01-10,-1,1
SYNTH-AE-001,AE,SUBJ-002,1,Rash,2026-01-15,,4,

