{
  "allowed_operations": [
    "constant",
    "concat",
    "sequence_by_group",
    "copy_trim",
    "partial_date_iso"
  ],
  "arbitrary_commands_allowed": false,
  "context_id": "ae-metadata-context-sample-ae-001-v1",
  "context_sha256": "5b57e5777449b106baf487867cb270629ea5bd7ac6b188deed63d77448cb1497",
  "generated_at": "2026-07-16T09:56:09.258015+00:00",
  "knowledge": {
    "release_id": "release-sdtmig34-proposals-v1",
    "release_sha256": "c0e9c74ac093fe3b5f4f5d77fc77ecffe212474c937446a69d045ff79477b510",
    "rules": [
      {
        "locators": [
          {
            "artifact_id": "artifact-cdisc-sdtmig-3-4-pdf",
            "artifact_sha256": "ea4ddbba4a3e10a55bb2f36d5e28d9cfc191090717c2426475279750a7f57021",
            "locator_id": "loc-sdtmig34-deep-p0011-b004",
            "text_sha256": "e7461fba0ddac8f087cb74235d80afdca4529037c19488e4c84fb2af64ed5c2d"
          }
        ],
        "rule_id": "proposal-sdtmig34-core-identifier-variable-role-v1",
        "source_id": "src-cdisc-sdtmig-3-4",
        "source_sha256": "ea4ddbba4a3e10a55bb2f36d5e28d9cfc191090717c2426475279750a7f57021",
        "source_version": "SDTMIG 3.4",
        "statement": "Identifier variables identify the study, subject, domain, and record sequence for an SDTM record."
      },
      {
        "locators": [
          {
            "artifact_id": "artifact-cdisc-sdtmig-3-4-pdf",
            "artifact_sha256": "ea4ddbba4a3e10a55bb2f36d5e28d9cfc191090717c2426475279750a7f57021",
            "locator_id": "loc-sdtmig34-deep-p0011-b018",
            "text_sha256": "09e89d3ef8336d91b0fd90d21fbe70205bf02abc803a308d86a7a0c69d6e000b"
          },
          {
            "artifact_id": "artifact-cdisc-sdtmig-3-4-pdf",
            "artifact_sha256": "ea4ddbba4a3e10a55bb2f36d5e28d9cfc191090717c2426475279750a7f57021",
            "locator_id": "loc-sdtmig34-deep-p0012-b001",
            "text_sha256": "aa2925ca518bbd2aaa41d9f0d911b3caaa52a974407233334ee60679429eba34"
          }
        ],
        "rule_id": "proposal-sdtmig34-core-domain-code-consistency-v1",
        "source_id": "src-cdisc-sdtmig-3-4",
        "source_sha256": "ea4ddbba4a3e10a55bb2f36d5e28d9cfc191090717c2426475279750a7f57021",
        "source_version": "SDTMIG 3.4",
        "statement": "Use each domain dataset's unique two-character code consistently as the dataset name, DOMAIN value, most variable-name prefix, and RDOMAIN relationship value."
      },
      {
        "locators": [
          {
            "artifact_id": "artifact-cdisc-sdtmig-3-4-pdf",
            "artifact_sha256": "ea4ddbba4a3e10a55bb2f36d5e28d9cfc191090717c2426475279750a7f57021",
            "locator_id": "loc-sdtmig34-deep-p0029-b014",
            "text_sha256": "7bd1cb4359530e27fca91f155533f5c19b6855125d8eff8e7f0a5d5404b1b099"
          }
        ],
        "rule_id": "proposal-sdtmig34-core-missing-values-as-nulls-v1",
        "source_id": "src-cdisc-sdtmig-3-4",
        "source_sha256": "ea4ddbba4a3e10a55bb2f36d5e28d9cfc191090717c2426475279750a7f57021",
        "source_version": "SDTMIG 3.4",
        "statement": "Represent missing values for individual SDTM data items as nulls."
      },
      {
        "locators": [
          {
            "artifact_id": "artifact-cdisc-sdtmig-3-4-pdf",
            "artifact_sha256": "ea4ddbba4a3e10a55bb2f36d5e28d9cfc191090717c2426475279750a7f57021",
            "locator_id": "loc-sdtmig34-p134-ae-spec-table",
            "text_sha256": "bb05ce1fb77c5a2926e575fae6146e2e611997bf6cf2c11dedfb2677f0828744"
          }
        ],
        "rule_id": "proposal-sdtmig34-gold-ae-structure-v1",
        "source_id": "src-cdisc-sdtmig-3-4",
        "source_sha256": "ea4ddbba4a3e10a55bb2f36d5e28d9cfc191090717c2426475279750a7f57021",
        "source_version": "SDTMIG 3.4",
        "statement": "AE is organized as one record for each adverse event for each subject."
      },
      {
        "locators": [
          {
            "artifact_id": "artifact-cdisc-sdtmig-3-4-pdf",
            "artifact_sha256": "ea4ddbba4a3e10a55bb2f36d5e28d9cfc191090717c2426475279750a7f57021",
            "locator_id": "loc-sdtmig34-p137-aeterm-assumption",
            "text_sha256": "7f1379891b7180ecfac435e6510778f57b1af436b5e5f1760fa4e02f3fe88f0a"
          },
          {
            "artifact_id": "artifact-cdisc-sdtmig-3-4-xlsx",
            "artifact_sha256": "0176e72eb43764ce01cfd7896dcc9d5b97cc55d0ce766c1ad14034a0b9ccb991",
            "locator_id": "loc-sdtmig34-xlsx-variables-r293",
            "text_sha256": "f604533743e7c933635dada46d1ccaecd53775b574a803ca9c1dce2523c76db0"
          }
        ],
        "rule_id": "proposal-sdtmig34-gold-aeterm-required-v1",
        "source_id": "src-cdisc-sdtmig-3-4",
        "source_sha256": "ea4ddbba4a3e10a55bb2f36d5e28d9cfc191090717c2426475279750a7f57021",
        "source_version": "SDTMIG 3.4",
        "statement": "AE.AETERM is required as the topic variable and records the collected verbatim adverse-event term."
      }
    ],
    "snapshot_id": "snapshot-sdtmig34-core-events-ae-v1",
    "snapshot_sha256": "d8aafb73ccca987d597e372435b664ba074c1a45688d5e2eef809c72f475a9ec",
    "snapshot_version": "1.0.0"
  },
  "minimum_information_plan": {
    "execution_eligibility": "draft_allowed",
    "explicit_gaps": [
      {
        "affects_variables": [
          "AESEV",
          "AESER",
          "AEREL",
          "AEACN",
          "AEOUT"
        ],
        "blocking": false,
        "category": "source_metadata",
        "description": "Source file does not provide resolvable value-label mappings for controlled fields",
        "evidence_refs": [
          "source-metadata#metadata_availability/value_labels"
        ],
        "gap_id": "gap-controlled-value-labels",
        "required_action": "Use governed CT plus Mapping Review; do not infer labels from observed values"
      }
    ],
    "plan_id": "minimum-information-sample-ae-001-sdtm-ae-v1",
    "plan_sha256": "e9064390bc48e6b779770f012ca89e8c24e00fb0f9a632257b20a3ff3f2f4a8b"
  },
  "reference_join": {
    "available": false,
    "matched_subject_count": 0,
    "reason": "registered reference identifiers do not join to Source.Subject",
    "reference_subject_count": 2,
    "source_subject_count": 180
  },
  "schema_version": "1.0.0",
  "source": {
    "format": "sas7bdat",
    "metadata_artifact_id": "source-metadata-2a6d72e9e5fa",
    "relative_path": "input/edc/ae09jun2025.sas7bdat",
    "row_count": 1066,
    "sha256": "2a6d72e9e5fa4bb8e3cc14b0c412fce3c37e519f3ab9105cdcff33ba031e8749",
    "value_labels_status": "unavailable",
    "variables": {
      "AEACN_STD": {
        "column_label": {
          "reason": null,
          "status": "available",
          "value": "Action taken with Study DrugCoded Value"
        },
        "logical_type": "string",
        "name": "AEACN_STD",
        "ordinal": 49,
        "source_format": {
          "reason": null,
          "status": "available",
          "value": "$90"
        },
        "source_informat": {
          "reason": "pyreadstat does not expose SAS informats from this dataset",
          "status": "unavailable",
          "value": null
        },
        "source_storage_type": "string",
        "storage_width": 90,
        "value_labels": {
          "label_set": null,
          "mapping": {},
          "reason": "No resolvable value-label mapping is embedded or supplied by catalog",
          "status": "unavailable"
        }
      },
      "AEENDAT": {
        "column_label": {
          "reason": null,
          "status": "available",
          "value": "Stop date"
        },
        "logical_type": "string",
        "name": "AEENDAT",
        "ordinal": 35,
        "source_format": {
          "reason": null,
          "status": "available",
          "value": "$33"
        },
        "source_informat": {
          "reason": "pyreadstat does not expose SAS informats from this dataset",
          "status": "unavailable",
          "value": null
        },
        "source_storage_type": "string",
        "storage_width": 33,
        "value_labels": {
          "label_set": null,
          "mapping": {},
          "reason": "No resolvable value-label mapping is embedded or supplied by catalog",
          "status": "unavailable"
        }
      },
      "AEOUT_STD": {
        "column_label": {
          "reason": null,
          "status": "available",
          "value": "OutcomeCoded Value"
        },
        "logical_type": "string",
        "name": "AEOUT_STD",
        "ordinal": 55,
        "source_format": {
          "reason": null,
          "status": "available",
          "value": "$150"
        },
        "source_informat": {
          "reason": "pyreadstat does not expose SAS informats from this dataset",
          "status": "unavailable",
          "value": null
        },
        "source_storage_type": "string",
        "storage_width": 150,
        "value_labels": {
          "label_set": null,
          "mapping": {},
          "reason": "No resolvable value-label mapping is embedded or supplied by catalog",
          "status": "unavailable"
        }
      },
      "AEREL_STD": {
        "column_label": {
          "reason": null,
          "status": "available",
          "value": "Reasonable causal relationship to Study DrugCoded Value"
        },
        "logical_type": "string",
        "name": "AEREL_STD",
        "ordinal": 47,
        "source_format": {
          "reason": null,
          "status": "available",
          "value": "$60"
        },
        "source_informat": {
          "reason": "pyreadstat does not expose SAS informats from this dataset",
          "status": "unavailable",
          "value": null
        },
        "source_storage_type": "string",
        "storage_width": 60,
        "value_labels": {
          "label_set": null,
          "mapping": {},
          "reason": "No resolvable value-label mapping is embedded or supplied by catalog",
          "status": "unavailable"
        }
      },
      "AESER_STD": {
        "column_label": {
          "reason": null,
          "status": "available",
          "value": "Serious Event?<br/><br/>If Yes, complete SAE CriteriaCoded Value"
        },
        "logical_type": "string",
        "name": "AESER_STD",
        "ordinal": 39,
        "source_format": {
          "reason": null,
          "status": "available",
          "value": "$3"
        },
        "source_informat": {
          "reason": "pyreadstat does not expose SAS informats from this dataset",
          "status": "unavailable",
          "value": null
        },
        "source_storage_type": "string",
        "storage_width": 3,
        "value_labels": {
          "label_set": null,
          "mapping": {},
          "reason": "No resolvable value-label mapping is embedded or supplied by catalog",
          "status": "unavailable"
        }
      },
      "AESEV_STD": {
        "column_label": {
          "reason": null,
          "status": "available",
          "value": "CTCAE GradeCoded Value"
        },
        "logical_type": "string",
        "name": "AESEV_STD",
        "ordinal": 37,
        "source_format": {
          "reason": null,
          "status": "available",
          "value": "$30"
        },
        "source_informat": {
          "reason": "pyreadstat does not expose SAS informats from this dataset",
          "status": "unavailable",
          "value": null
        },
        "source_storage_type": "string",
        "storage_width": 30,
        "value_labels": {
          "label_set": null,
          "mapping": {},
          "reason": "No resolvable value-label mapping is embedded or supplied by catalog",
          "status": "unavailable"
        }
      },
      "AESTDAT": {
        "column_label": {
          "reason": null,
          "status": "available",
          "value": "Start date"
        },
        "logical_type": "string",
        "name": "AESTDAT",
        "ordinal": 32,
        "source_format": {
          "reason": null,
          "status": "available",
          "value": "$33"
        },
        "source_informat": {
          "reason": "pyreadstat does not expose SAS informats from this dataset",
          "status": "unavailable",
          "value": null
        },
        "source_storage_type": "string",
        "storage_width": 33,
        "value_labels": {
          "label_set": null,
          "mapping": {},
          "reason": "No resolvable value-label mapping is embedded or supplied by catalog",
          "status": "unavailable"
        }
      },
      "AETERM": {
        "column_label": {
          "reason": null,
          "status": "available",
          "value": "Adverse Event, specify, give diagnosis if possible"
        },
        "logical_type": "string",
        "name": "AETERM",
        "ordinal": 59,
        "source_format": {
          "reason": null,
          "status": "available",
          "value": "$600"
        },
        "source_informat": {
          "reason": "pyreadstat does not expose SAS informats from this dataset",
          "status": "unavailable",
          "value": null
        },
        "source_storage_type": "string",
        "storage_width": 600,
        "value_labels": {
          "label_set": null,
          "mapping": {},
          "reason": "No resolvable value-label mapping is embedded or supplied by catalog",
          "status": "unavailable"
        }
      },
      "AETERM_CoderDictName": {
        "column_label": {
          "reason": null,
          "status": "available",
          "value": "Adverse Event, specify, give diagnosis if possible_CoderDictName"
        },
        "logical_type": "string",
        "name": "AETERM_CoderDictName",
        "ordinal": 60,
        "source_format": {
          "reason": null,
          "status": "available",
          "value": "$450"
        },
        "source_informat": {
          "reason": "pyreadstat does not expose SAS informats from this dataset",
          "status": "unavailable",
          "value": null
        },
        "source_storage_type": "string",
        "storage_width": 450,
        "value_labels": {
          "label_set": null,
          "mapping": {},
          "reason": "No resolvable value-label mapping is embedded or supplied by catalog",
          "status": "unavailable"
        }
      },
      "AETERM_CoderDictVersion": {
        "column_label": {
          "reason": null,
          "status": "available",
          "value": "Adverse Event, specify, give diagnosis if possible_CoderDictVersion"
        },
        "logical_type": "string",
        "name": "AETERM_CoderDictVersion",
        "ordinal": 61,
        "source_format": {
          "reason": null,
          "status": "available",
          "value": "$450"
        },
        "source_informat": {
          "reason": "pyreadstat does not expose SAS informats from this dataset",
          "status": "unavailable",
          "value": null
        },
        "source_storage_type": "string",
        "storage_width": 450,
        "value_labels": {
          "label_set": null,
          "mapping": {},
          "reason": "No resolvable value-label mapping is embedded or supplied by catalog",
          "status": "unavailable"
        }
      },
      "AETERM_PT": {
        "column_label": {
          "reason": null,
          "status": "available",
          "value": "Adverse Event, specify, give diagnosis if possible_PT"
        },
        "logical_type": "string",
        "name": "AETERM_PT",
        "ordinal": 68,
        "source_format": {
          "reason": null,
          "status": "available",
          "value": "$1500"
        },
        "source_informat": {
          "reason": "pyreadstat does not expose SAS informats from this dataset",
          "status": "unavailable",
          "value": null
        },
        "source_storage_type": "string",
        "storage_width": 1500,
        "value_labels": {
          "label_set": null,
          "mapping": {},
          "reason": "No resolvable value-label mapping is embedded or supplied by catalog",
          "status": "unavailable"
        }
      },
      "AETERM_SOC": {
        "column_label": {
          "reason": null,
          "status": "available",
          "value": "Adverse Event, specify, give diagnosis if possible_SOC"
        },
        "logical_type": "string",
        "name": "AETERM_SOC",
        "ordinal": 70,
        "source_format": {
          "reason": null,
          "status": "available",
          "value": "$1500"
        },
        "source_informat": {
          "reason": "pyreadstat does not expose SAS informats from this dataset",
          "status": "unavailable",
          "value": null
        },
        "source_storage_type": "string",
        "storage_width": 1500,
        "value_labels": {
          "label_set": null,
          "mapping": {},
          "reason": "No resolvable value-label mapping is embedded or supplied by catalog",
          "status": "unavailable"
        }
      },
      "RecordPosition": {
        "column_label": {
          "reason": null,
          "status": "available",
          "value": "Record number"
        },
        "logical_type": "double",
        "name": "RecordPosition",
        "ordinal": 25,
        "source_format": {
          "reason": null,
          "status": "available",
          "value": "10"
        },
        "source_informat": {
          "reason": "pyreadstat does not expose SAS informats from this dataset",
          "status": "unavailable",
          "value": null
        },
        "source_storage_type": "double",
        "storage_width": 8,
        "value_labels": {
          "label_set": null,
          "mapping": {},
          "reason": "No resolvable value-label mapping is embedded or supplied by catalog",
          "status": "unavailable"
        }
      },
      "Subject": {
        "column_label": {
          "reason": null,
          "status": "available",
          "value": "Subject name or identifier"
        },
        "logical_type": "string",
        "name": "Subject",
        "ordinal": 7,
        "source_format": {
          "reason": null,
          "status": "available",
          "value": "$150"
        },
        "source_informat": {
          "reason": "pyreadstat does not expose SAS informats from this dataset",
          "status": "unavailable",
          "value": null
        },
        "source_storage_type": "string",
        "storage_width": 150,
        "value_labels": {
          "label_set": null,
          "mapping": {},
          "reason": "No resolvable value-label mapping is embedded or supplied by catalog",
          "status": "unavailable"
        }
      }
    }
  },
  "study": {
    "crf_required": false,
    "study_id": "SAMPLE-AE-001"
  },
  "target_standard": {
    "name": "SDTMIG",
    "version": "3.4"
  }
}
