{"created_at":"2026-07-15T18:20:00+08:00","items":[{"aliases":[],"allowed_uses":["runtime","reference"],"applicability":{"conditions":[],"sponsor_ids":[],"study_ids":[],"therapeutic_areas":[],"trial_phases":[]},"approval_receipt_id":"review-sdtm-spec-sdtmig34-proposals-v1-001","approval_status":"approved","audit_reference":"wiki-audit-20260715-sdtmig34-proposals-v1-001","authority":"industry_standard","content_hash":"3ba216768703ceba459de5059ff0d6054b2ea513244b30ed788fb5c58e0d4349","content_status":"verified","contract_compatibility":{"maximum_exclusive":"2.0.0","minimum":"1.0.0"},"created":"2026-07-15T17:40:00+08:00","domains":["sdtm","data_standards"],"id":"kr-sdtmig34-ae-domain-rules","last_reviewed":"2026-07-15","owner":"clinical-knowledge-governance","review_due":"2027-07-15","rights_status":"restricted","schema_version":"1.0.0","sources":["src-cdisc-sdtmig-3-4"],"statements":[{"evidence_refs":["src-cdisc-sdtmig-3-4"],"rationale":"P6-P3-E 人工批准的 SDTMIG 3.4 proposal；精确 locator 与 typed relation 由 P4 relation graph 承载。","rule_id":"proposal-sdtmig34-gold-events-class-guidance-v1","statement":"Use the applicable SDTM general observation class when representing subject-level observations collected in a study."},{"evidence_refs":["src-cdisc-sdtmig-3-4"],"rationale":"P6-P3-E 人工批准的 SDTMIG 3.4 proposal；精确 locator 与 typed relation 由 P4 relation graph 承载。","rule_id":"proposal-sdtmig34-gold-ae-definition-v1","statement":"AE covers untoward medical occurrences, and the occurrence does not need to have a causal treatment relationship."},{"evidence_refs":["src-cdisc-sdtmig-3-4"],"rationale":"P6-P3-E 人工批准的 SDTMIG 3.4 proposal；精确 locator 与 typed relation 由 P4 relation graph 承载。","rule_id":"proposal-sdtmig34-gold-ae-structure-v1","statement":"AE is organized as one record for each adverse event for each subject."},{"evidence_refs":["src-cdisc-sdtmig-3-4"],"rationale":"P6-P3-E 人工批准的 SDTMIG 3.4 proposal；精确 locator 与 typed relation 由 P4 relation graph 承载。","rule_id":"proposal-sdtmig34-gold-aeterm-required-v1","statement":"AE.AETERM is required as the topic variable and records the collected verbatim adverse-event term."},{"evidence_refs":["src-cdisc-sdtmig-3-4"],"rationale":"P6-P3-E 人工批准的 SDTMIG 3.4 proposal；精确 locator 与 typed relation 由 P4 relation graph 承载。","rule_id":"proposal-sdtmig34-gold-ae-example1-v1","statement":"Example 1 is illustrative only and shows free-text AE capture, MedDRA coding, optional modified term, and seriousness-category collection in one study scenario."},{"evidence_refs":["src-cdisc-sdtmig-3-4"],"rationale":"P6-P3-E 人工批准的 SDTMIG 3.4 proposal；精确 locator 与 typed relation 由 P4 relation graph 承载。","rule_id":"proposal-sdtmig34-gold-aeenrf-crossref-v1","statement":"Read AE.AEENRF values together with the general relative-timing guidance in Section 4.4.7."},{"evidence_refs":["src-cdisc-sdtmig-3-4"],"rationale":"P6-P3-E 人工批准的 SDTMIG 3.4 proposal；精确 locator 与 typed relation 由 P4 relation graph 承载。","rule_id":"proposal-sdtmig34-gold-erratum-lnkgrp-v1","statement":"For RELTYPE=MANY, apply the published erratum that uses --LNKGRP rather than --LNKID for IDVAR."}],"storage_mode":"committed","summary":"SDTMIG 3.4 Events/AE 深度范围规则，覆盖 AE domain definition、AE dataset structure、AETERM、AEENRF、Example 1 和 RELTYPE=MANY erratum。","superseded_by":null,"supersedes":[],"title":"SDTMIG 3.4 AE Domain Rules","topics":["sdtmig-3-4","events","adverse-events","ae-domain"],"type":"standard_rule","version":"1.0.0","workflow_stages":["sdtm_spec","sdtm_programming"]},{"aliases":[],"allowed_uses":["runtime","reference"],"applicability":{"conditions":[],"sponsor_ids":[],"study_ids":[],"therapeutic_areas":[],"trial_phases":[]},"approval_receipt_id":"review-sdtm-spec-sdtmig34-proposals-v1-001","approval_status":"approved","audit_reference":"wiki-audit-20260715-sdtmig34-proposals-v1-001","authority":"industry_standard","content_hash":"b92ac6fd11be42287906b3d1886ea3b5ed2464960e6bf72c241a3b6f0ee7bdd3","content_status":"verified","contract_compatibility":{"maximum_exclusive":"2.0.0","minimum":"1.0.0"},"created":"2026-07-15T17:40:00+08:00","domains":["sdtm","data_standards"],"id":"kr-sdtmig34-core-foundations","last_reviewed":"2026-07-15","owner":"clinical-knowledge-governance","review_due":"2027-07-15","rights_status":"restricted","schema_version":"1.0.0","sources":["src-cdisc-sdtmig-3-4"],"statements":[{"evidence_refs":["src-cdisc-sdtmig-3-4"],"rationale":"P6-P3-E 人工批准的 SDTMIG 3.4 proposal；精确 locator 与 typed relation 由 P4 relation graph 承载。","rule_id":"proposal-sdtmig34-core-observation-framework-v1","statement":"SDTMIG 3.4 organizes human clinical trial submission data as observations collected about study subjects."},{"evidence_refs":["src-cdisc-sdtmig-3-4"],"rationale":"P6-P3-E 人工批准的 SDTMIG 3.4 proposal；精确 locator 与 typed relation 由 P4 relation graph 承载。","rule_id":"proposal-sdtmig34-core-identifier-variable-role-v1","statement":"Identifier variables identify the study, subject, domain, and record sequence for an SDTM record."},{"evidence_refs":["src-cdisc-sdtmig-3-4"],"rationale":"P6-P3-E 人工批准的 SDTMIG 3.4 proposal；精确 locator 与 typed relation 由 P4 relation graph 承载。","rule_id":"proposal-sdtmig34-core-topic-variable-role-v1","statement":"Topic variables specify the focus of an SDTM observation."},{"evidence_refs":["src-cdisc-sdtmig-3-4"],"rationale":"P6-P3-E 人工批准的 SDTMIG 3.4 proposal；精确 locator 与 typed relation 由 P4 relation graph 承载。","rule_id":"proposal-sdtmig34-core-timing-variable-role-v1","statement":"Timing variables describe when an SDTM observation occurs."},{"evidence_refs":["src-cdisc-sdtmig-3-4"],"rationale":"P6-P3-E 人工批准的 SDTMIG 3.4 proposal；精确 locator 与 typed relation 由 P4 relation graph 承载。","rule_id":"proposal-sdtmig34-core-qualifier-variable-role-v1","statement":"Qualifier variables add descriptive text or numeric values that further characterize an SDTM observation."},{"evidence_refs":["src-cdisc-sdtmig-3-4"],"rationale":"P6-P3-E 人工批准的 SDTMIG 3.4 proposal；精确 locator 与 typed relation 由 P4 relation graph 承载。","rule_id":"proposal-sdtmig34-core-rule-variable-role-v1","statement":"Rule variables describe start, end, branch, or loop conditions in the Trial Design Model."},{"evidence_refs":["src-cdisc-sdtmig-3-4"],"rationale":"P6-P3-E 人工批准的 SDTMIG 3.4 proposal；精确 locator 与 typed relation 由 P4 relation graph 承载。","rule_id":"proposal-sdtmig34-core-domain-definition-v1","statement":"An SDTM domain is a collection of logically related observations with a common topic."},{"evidence_refs":["src-cdisc-sdtmig-3-4"],"rationale":"P6-P3-E 人工批准的 SDTMIG 3.4 proposal；精确 locator 与 typed relation 由 P4 relation graph 承载。","rule_id":"proposal-sdtmig34-core-domain-code-consistency-v1","statement":"Use each domain dataset's unique two-character code consistently as the dataset name, DOMAIN value, most variable-name prefix, and RDOMAIN relationship value."},{"evidence_refs":["src-cdisc-sdtmig-3-4"],"rationale":"P6-P3-E 人工批准的 SDTMIG 3.4 proposal；精确 locator 与 typed relation 由 P4 relation graph 承载。","rule_id":"proposal-sdtmig34-core-dataset-flat-file-structure-v1","statement":"SDTM datasets are flat files where rows represent observations, columns represent variables, and metadata describe the variables used."},{"evidence_refs":["src-cdisc-sdtmig-3-4"],"rationale":"P6-P3-E 人工批准的 SDTMIG 3.4 proposal；精确 locator 与 typed relation 由 P4 relation graph 承载。","rule_id":"proposal-sdtmig34-core-general-observation-classes-v1","statement":"Most subject-level observations collected during a study should be represented using one of the three SDTM general observation classes: Interventions, Events, or Findings."},{"evidence_refs":["src-cdisc-sdtmig-3-4"],"rationale":"P6-P3-E 人工批准的 SDTMIG 3.4 proposal；精确 locator 与 typed relation 由 P4 relation graph 承载。","rule_id":"proposal-sdtmig34-core-conformance-required-expected-columns-v1","statement":"For SDTMIG conformance, standard domains include all Required and Expected variables as columns, and all Required variables are populated."},{"evidence_refs":["src-cdisc-sdtmig-3-4"],"rationale":"P6-P3-E 人工批准的 SDTMIG 3.4 proposal；精确 locator 与 typed relation 由 P4 relation graph 承载。","rule_id":"proposal-sdtmig34-core-missing-values-as-nulls-v1","statement":"Represent missing values for individual SDTM data items as nulls."}],"storage_mode":"committed","summary":"SDTMIG 3.4 Core 基础规则，覆盖 observation、变量角色、domain/dataset 结构、general observation classes、conformance 和 missing value 语境。","superseded_by":null,"supersedes":[],"title":"SDTMIG 3.4 Core Foundations","topics":["sdtmig-3-4","core","sdtm-foundations"],"type":"standard_rule","version":"1.0.0","workflow_stages":["sdtm_spec","sdtm_programming"]},{"aliases":[],"allowed_uses":["runtime","reference"],"applicability":{"conditions":[],"sponsor_ids":[],"study_ids":[],"therapeutic_areas":[],"trial_phases":[]},"approval_receipt_id":"review-sdtm-spec-sdtmig34-proposals-v1-001","approval_status":"approved","audit_reference":"wiki-audit-20260715-sdtmig34-proposals-v1-001","authority":"industry_standard","content_hash":"58582385be8d79f13e9b8fb6dd1f7780c5944035b4e7c44ff6f087043918aa6b","content_status":"verified","contract_compatibility":{"maximum_exclusive":"2.0.0","minimum":"1.0.0"},"created":"2026-07-15T17:40:00+08:00","domains":["sdtm","data_standards"],"id":"kr-sdtmig34-core-variable-rules","last_reviewed":"2026-07-15","owner":"clinical-knowledge-governance","review_due":"2027-07-15","rights_status":"restricted","schema_version":"1.0.0","sources":["src-cdisc-sdtmig-3-4"],"statements":[{"evidence_refs":["src-cdisc-sdtmig-3-4"],"rationale":"P6-P3-E 人工批准的 SDTMIG 3.4 proposal；精确 locator 与 typed relation 由 P4 relation graph 承载。","rule_id":"proposal-sdtmig34-core-core-required-variable-v1","statement":"A Required Core variable is essential to identifying or interpreting a record and must always be included and populated."},{"evidence_refs":["src-cdisc-sdtmig-3-4"],"rationale":"P6-P3-E 人工批准的 SDTMIG 3.4 proposal；精确 locator 与 typed relation 由 P4 relation graph 承载。","rule_id":"proposal-sdtmig34-core-core-expected-variable-v1","statement":"An Expected Core variable is needed to make a domain record useful; if the study lacks the data item, include a null column and document that absence in Define-XML."},{"evidence_refs":["src-cdisc-sdtmig-3-4"],"rationale":"P6-P3-E 人工批准的 SDTMIG 3.4 proposal；精确 locator 与 typed relation 由 P4 relation graph 承载。","rule_id":"proposal-sdtmig34-core-core-permissible-variable-v1","statement":"A Permissible Core variable should be used in an SDTM dataset where appropriate unless SDTMIG restrictions or domain assumptions specifically restrict it."},{"evidence_refs":["src-cdisc-sdtmig-3-4"],"rationale":"P6-P3-E 人工批准的 SDTMIG 3.4 proposal；精确 locator 与 typed relation 由 P4 relation graph 承载。","rule_id":"proposal-sdtmig34-core-permissible-generally-not-used-v1","statement":"A domain assumption saying a Permissible variable is generally not used does not prohibit using that variable."},{"evidence_refs":["src-cdisc-sdtmig-3-4"],"rationale":"P6-P3-E 人工批准的 SDTMIG 3.4 proposal；精确 locator 与 typed relation 由 P4 relation graph 承载。","rule_id":"proposal-sdtmig34-core-permissible-include-when-data-item-exists-v1","statement":"If a study includes a data item represented by a Permissible variable, include that variable in the SDTM dataset and document unavailable data for it in Define-XML."},{"evidence_refs":["src-cdisc-sdtmig-3-4"],"rationale":"P6-P3-E 人工批准的 SDTMIG 3.4 proposal；精确 locator 与 typed relation 由 P4 relation graph 承载。","rule_id":"proposal-sdtmig34-core-permissible-omit-when-data-item-absent-v1","statement":"If a study did not include a data item represented by a Permissible variable, do not include the variable in the SDTM dataset or declare it in Define-XML."},{"evidence_refs":["src-cdisc-sdtmig-3-4"],"rationale":"P6-P3-E 人工批准的 SDTMIG 3.4 proposal；精确 locator 与 typed relation 由 P4 relation graph 承载。","rule_id":"proposal-sdtmig34-core-study-day-variable-purpose-v1","statement":"Study day variables describe an observation's relative day using the reference date as day 1."},{"evidence_refs":["src-cdisc-sdtmig-3-4"],"rationale":"P6-P3-E 人工批准的 SDTMIG 3.4 proposal；精确 locator 与 typed relation 由 P4 relation graph 承载。","rule_id":"proposal-sdtmig34-core-study-day-reference-and-limit-v1","statement":"RFSTDTC is study day 1, the day before it is study day -1, there is no study day 0, and raw dates should be used instead of study day values for numeric duration calculations."},{"evidence_refs":["src-cdisc-sdtmig-3-4"],"rationale":"P6-P3-E 人工批准的 SDTMIG 3.4 proposal；精确 locator 与 typed relation 由 P4 relation graph 承载。","rule_id":"proposal-sdtmig34-core-study-day-calculation-method-v1","statement":"Calculate --DY from the date portion of --DTC and RFSTDTC, adding 1 when --DTC is on or after RFSTDTC and not adding 1 when --DTC precedes RFSTDTC; use this method across domains."}],"storage_mode":"committed","summary":"SDTMIG 3.4 Core variable designation 与 study day 规则，覆盖 Required、Expected、Permissible、collected/absent data item 和 --DY 计算。","superseded_by":null,"supersedes":[],"title":"SDTMIG 3.4 Core Variable Rules","topics":["sdtmig-3-4","core","variable-rules","study-day"],"type":"standard_rule","version":"1.0.0","workflow_stages":["sdtm_spec","sdtm_programming"]}],"schema_bundle":{"sha256":"72e5fed6cd37fdb82888e3a7b2310fe44fa0953a30eb579688a7c580f2b33e14","version":"1.1.0"},"sha256":"d8aafb73ccca987d597e372435b664ba074c1a45688d5e2eef809c72f475a9ec","snapshot_id":"snapshot-sdtmig34-core-events-ae-v1","version":"1.0.0"}
